Folder: NaBiF4_PL_analysis/NaBiF4_PL_analysis/XRD

File: NaBiF4.xy
5.00543 1831.0
5.26623 1522.0
5.52702 1382.0
5.78782 1223.0
6.04861 994.0
6.30941 567.0
6.5702 464.0
6.831 386.0
7.09179 311.0
7.35258 280.0
7.61338 298.0
7.87417 268.0
8.13497 286.0
8.39576 266.0
8.65656 299.0
8.91735 256.0
9.17815 284.0
9.43894 271.0
9.69974 323.0
9.96053 342.0
10.2213 330.0
10.4821 344.0
10.7429 366.0
11.0037 339.0
11.2645 352.0
11.5253 368.0
11.7861 411.0
12.0469 435.0
12.3077 408.0
12.5685 435.0
12.8293 436.0
13.0901 682.0
13.3509 2337.0
13.6117 1838.0
13.8724 592.0
14.1332 514.0
14.394 528.0
14.6548 540.0
14.9156 511.0
15.1764 559.0
15.4372 527.0
15.698 487.0
15.9588 579.0
16.2196 566.0
16.4804 514.0
16.7412 563.0
17.002 577.0
17.2628 676.0
17.5236 1541.0
17.7844 1394.0
18.0452 695.0
18.306 613.0
18.5668 595.0
18.8275 579.0
19.0883 583.0
19.3491 626.0
19.6099 594.0
19.8707 557.0
20.1315 558.0
20.3923 551.0
20.6531 565.0
20.9139 589.0
21.1747 595.0
21.4355 526.0
21.6963 540.0
21.9571 597.0
22.2179 572.0
22.4787 580.0
22.7395 565.0
23.0003 546.0
23.2611 566.0
23.5218 562.0
23.7826 556.0
24.0434 594.0
24.3042 1968.0
24.565 3953.0
24.8258 663.0
25.0866 566.0
25.3474 549.0
25.6082 520.0
25.869 561.0
26.1298 606.0
26.3906 905.0
26.6514 3226.0
26.9122 680.0
27.173 643.0
27.4338 740.0
27.6946 718.0
27.9554 657.0
28.2161 894.0
28.4769 659.0
28.7377 556.0
28.9985 542.0
29.2593 754.0
29.5201 527.0
29.7809 652.0
30.0417 739.0
30.3025 1699.0
30.5633 2170.0
30.8241 32512.0
31.0849 2612.0
31.3457 4705.0
31.6065 1182.0
31.8673 724.0
32.1281 649.0
32.3889 614.0
32.6497 601.0
32.9105 593.0
33.1712 2520.0
33.432 2780.0
33.6928 684.0
33.9536 574.0
34.2144 691.0
34.4752 623.0
34.736 556.0
34.9968 583.0
35.2576 840.0
35.5184 571.0
35.7792 947.0
36.04 860.0
36.3008 504.0
36.5616 512.0
36.8224 482.0
37.0832 456.0
37.344 525.0
37.6048 509.0
37.8655 488.0
38.1263 643.0
38.3871 556.0
38.6479 474.0
38.9087 459.0
39.1695 491.0
39.4303 541.0
39.6911 577.0
39.9519 2396.0
40.2127 989.0
40.4735 560.0
40.7343 643.0
40.9951 855.0
41.2559 456.0
41.5167 472.0
41.7775 460.0
42.0383 460.0
42.2991 537.0
42.5598 653.0
42.8206 7138.0
43.0814 873.0
43.3422 531.0
43.603 731.0
43.8638 2975.0
44.1246 1335.0
44.3854 602.0
44.6462 516.0
44.907 521.0
45.1678 500.0
45.4286 706.0
45.6894 496.0
45.9502 497.0
46.211 512.0
46.4718 496.0
46.7326 590.0
46.9934 694.0
47.2542 628.0
47.5149 5541.0
47.7757 776.0
48.0365 549.0
48.2973 458.0
48.5581 502.0
48.8189 486.0
49.0797 680.0
49.3405 705.0
49.6013 1157.0
49.8621 555.0
50.1229 516.0
50.3837 537.0
50.6445 662.0
50.9053 752.0
51.1661 554.0
51.4269 547.0
51.6877 531.0
51.9485 596.0
52.2092 597.0
52.47 1229.0
52.7308 5363.0
52.9916 2642.0
53.2524 903.0
53.5132 1733.0
53.774 1477.0
54.0348 4047.0
54.2956 1377.0
54.5564 681.0
54.8172 733.0
55.078 1399.0
55.3388 722.0
55.5996 879.0
55.8604 777.0
56.1212 623.0
56.382 691.0
56.6428 574.0
56.9036 555.0
57.1643 820.0
57.4251 7233.0
57.6859 1335.0
57.9467 655.0
58.2075 494.0
58.4683 513.0
58.7291 520.0
58.9899 557.0
59.2507 476.0
59.5115 483.0
59.7723 469.0
60.0331 484.0
60.2939 443.0
60.5547 463.0
60.8155 488.0
61.0763 480.0
61.3371 555.0
61.5979 935.0
61.8586 688.0
62.1194 621.0
62.3802 587.0
62.641 741.0
62.9018 527.0
63.1626 513.0
63.4234 1988.0
63.6842 1228.0
63.945 571.0
64.2058 657.0
64.4666 648.0
64.7274 692.0
64.9882 526.0
65.249 640.0
65.5098 528.0
65.7706 452.0
66.0314 485.0
66.2922 867.0
66.5529 1291.0
66.8137 509.0
67.0745 500.0
67.3353 436.0
67.5961 465.0
67.8569 452.0
68.1177 437.0
68.3785 454.0
68.6393 516.0
68.9001 865.0
69.1609 1415.0
69.4217 696.0
69.6825 548.0
69.9433 443.0
70.2041 433.0
70.4649 451.0
70.7257 666.0
70.9865 542.0
71.2473 805.0
71.508 734.0
71.7688 520.0
72.0296 501.0
72.2904 489.0
72.5512 583.0
72.812 617.0
73.0728 547.0
73.3336 1039.0
73.5944 1299.0
73.8552 565.0
74.116 488.0
74.3768 583.0
74.6376 472.0
74.8984 481.0
75.1592 912.0
75.42 676.0
75.6808 483.0
75.9416 450.0
76.2023 515.0
76.4631 462.0
76.7239 505.0
76.9847 521.0
77.2455 1661.0
77.5063 1174.0
77.7671 678.0
78.0279 705.0
78.2887 804.0
78.5495 1790.0
78.8103 1200.0
79.0711 696.0
79.3319 599.0
79.5927 524.0
79.8535 505.0
79.9947 607.0